Folder: Web_Scraping/Customer_Executions/Additional_Dates/Fund_Date_Data

Note: README.md
# Web Scraping with Python

## Documentation for Web Scraping
- **Web Scraping** is the process of using bots to extract content and data from a website.


- Unlike screen scraping, which only copies pixels displayed onscreen, web scraping extracts underlying HTML code and, with it, data stored in a database. The scraper can then replicate entire website content elsewhere.


- Web scraping is used in a variety of digital businesses that rely on *data harvesting*. Legitimate use cases include:

    - Search engine bots crawling a site, **analyzing its content and then ranking it**.
    
    - Price comparison sites deploying bots to **auto-fetch prices and product descriptions for allied seller websites**.
    
    - Market research companies using scrapers to **pull data from forums and social media (e.g., for sentiment analysis)**.
    
    
- Web scraping is also used for *illegal purposes*, including the undercutting of prices and the theft of copyrighted content.


- Web scraping tools are software (i.e., bots) programmed to sift through databases and extract information. A variety of bot types are used, many being fully customizable to:

    1. **Recognize unique HTML site structures**
    
    2. **Extract and transform content**
    
    3. **Store scraped data**
    
    4. **Extract data from APIs**

## Web Scraping Bots 

- Since all scraping bots have the same purpose—*to access site data*—it can be difficult to distinguish between legitimate and malicious bots.
    
    - Legitimate bots are identified with the **organization for which they scrape**. For example, Googlebot identifies itself in its HTTP header as belonging to Google. Malicious bots, conversely, *impersonate legitimate traffic by creating a false HTTP user agent.*
    
    - Legitimate bots abide a **site’s robot.txt file**, which lists those pages a bot is permitted to access and those it cannot. Malicious scrapers, on the other hand, *crawl the website regardless of what the site operator has allowed.*

- A perpetrator, lacking a budget to run substantial server duty, often resorts to using a **botnet—geographically dispersed computers, infected with the same malware and controlled from a central location**. Individual botnet computer owners are unaware of their participation. The combined power of the infected systems enables *large scale scraping of many different websites by the perpetrator*.

![Kano Eitoku - Cypress Trees](https://upload.wikimedia.org/wikipedia/commons/4/47/Kano_Eitoku_-_Cypress_Trees.jpg)

File: TGA.csv
,portfoy_degeri,record_date,fon_tutari,data_date,fund_code,toplam_pay_sayisi,record_id,kisi_sayisi,hazir_deger,bpp_degeri,price,isin_code,id,aktif_deger,tedavuldeki_pay_sayisi
0,11008646.11,2018-12-13T10:14:57,100000000.0,2018-12-03,TGA,10000000000.0,TGA03122018,847,13479.34,0.0,0.025105,TRYGRAN00076,9032342.0,10981559.27,437430090.0
8,11127316.35,2018-12-23T10:14:54,100000000.0,2018-12-13,TGA,10000000000.0,TGA13122018,863,10302.7,0.0,0.024995,TRYGRAN00076,9227543.0,11121332.07,444935853.0
16,11076023.33,2019-01-04T10:14:57,100000000.0,2018-12-25,TGA,10000000000.0,TGA25122018,853,10710.07,0.0,0.025185,TRYGRAN00076,9450235.0,11054618.24,438933465.0
24,11223098.47,2019-01-17T10:14:57,100000000.0,2019-01-07,TGA,10000000000.0,TGA07012019,857,10846.33,0.0,0.025367,TRYGRAN00076,9692346.0,11108581.1,437917487.0
32,10797409.95,2019-01-27T10:14:57,100000000.0,2019-01-17,TGA,10000000000.0,TGA17012019,839,5817.46,0.0,0.025357,TRYGRAN00076,9888468.0,10779205.14,425089863.0
40,10634064.87,2019-02-08T10:14:56,100000000.0,2019-01-29,TGA,10000000000.0,TGA29012019,822,9570.07,0.0,0.025759,TRYGRAN00076,10131706.0,10618097.36,412205101.0
48,10652520.34,2019-02-18T10:14:58,100000000.0,2019-02-08,TGA,10000000000.0,TGA08022019,826,9150.23,0.0,0.025971,TRYGRAN00076,10310452.0,10646998.1,409954725.0
56,11123385.51,2019-03-02T10:14:55,100000000.0,2019-02-20,TGA,10000000000.0,TGA20022019,830,7551.84,0.0,0.026172,TRYGRAN00076,10570042.0,11102993.4,424225768.0
64,12829496.34,2019-03-08T14:43:06,100000000.0,2019-03-04,TGA,10000000000.0,TGA04032019,862,6692.48,0.0,0.026459,TRYGRAN00076,10663028.0,12815813.58,484359111.0
72,12636525.64,2019-03-14T10:50:00,100000000.0,2019-03-14,TGA,10000000000.0,TGA14032019,870,4230.7,0.0,0.026444,TRYGRAN00076,10675859.0,12601109.4,476522158.0
80,12477036.2,2019-03-26T09:50:00,100000000.0,2019-03-26,TGA,10000000000.0,TGA25032019,875,8656.9,0.0,0.02643,TRYGRAN00076,11877219.0,12454547.46,471223327.0
88,12082397.99,2019-04-05T10:50:00,100000000.0,2019-04-05,TGA,10000000000.0,TGA05042019,865,6138.21,0.0,0.026371,TRYGRAN00076,11893407.0,12010535.13,455442081.0
96,11860385.94,2019-04-17T09:50:00,100000000.0,2019-04-17,TGA,10000000000.0,TGA17042019,848,8533.4,0.0,0.026763,TRYGRAN00076,11899552.0,11842505.41,442487788.0
104,9954259.09,2019-04-30T10:50:00,100000000.0,2019-04-30,TGA,10000000000.0,TGA30042019,842,8354.0,0.0,0.026936,TRYGRAN00076,11905675.0,11358551.15,421689704.0
112,9413696.94,2019-05-13T10:50:01,100000000.0,2019-05-13,TGA,10000000000.0,TGA13052019,813,6650.4,0.0,0.027408,TRYGRAN00076,11911803.0,9367059.42,341769696.0
120,9794844.23,2019-05-23T09:50:01,100000000.0,2019-05-23,TGA,10000000000.0,TGA23052019,818,7900.89,0.0,0.02755,TRYGRAN00076,11917950.0,9815310.86,356268597.0
128,9888874.68,2019-06-07T09:50:00,100000000.0,2019-06-07,TGA,10000000000.0,TGA07062019,829,9944.33,0.0,0.028166,TRYGRAN00076,11924106.0,9924824.02,352364334.0
136,10026096.1,2019-06-19T09:26:25,100000000.0,2019-06-19,TGA,10000000000.0,TGA19062019,833,9809.23,0.0,0.028264,TRYGRAN00076,11930252.0,9960171.0,352403946.0
144,10223119.27,2019-07-01T09:25:06,100000000.0,2019-07-01,TGA,10000000000.0,TGA01072019,836,8552.73,661274.8,0.028446,TRYGRAN00076,11936417.0,10156741.23,357053695.0
152,10453846.84,2019-07-11T09:30:19,100000000.0,2019-07-11,TGA,10000000000.0,TGA11072019,847,8902.65,0.0,0.028584,TRYGRAN00076,11942582.0,10454440.89,365738434.0
160,11030849.93,2019-07-24T09:27:35,100000000.0,2019-07-24,TGA,10000000000.0,TGA24072019,850,7462.27,0.0,0.028865,TRYGRAN00076,11948756.0,10921546.99,378362809.0
168,12556959.08,2019-08-05T09:27:23,100000000.0,2019-08-05,TGA,10000000000.0,TGA05082019,864,9922.25,520809.92,0.029186,TRYGRAN00076,11954922.0,11838422.92,405613235.0
176,12738756.49,2019-08-20T09:50:00,100000000.0,2019-08-20,TGA,10000000000.0,TGA20082019,885,8721.47,0.0,0.029623,TRYGRAN00076,11961078.0,12714222.1,429194987.0
184,15313243.27,2019-09-02T09:26:55,100000000.0,2019-09-02,TGA,10000000000.0,TGA02092019,931,6386.68,0.0,0.029904,TRYGRAN00076,11967321.0,15301095.55,511672849.0
192,18062980.07,2019-09-12T09:35:06,100000000.0,2019-09-12,TGA,10000000000.0,TGA12092019,982,9189.16,0.0,0.030075,TRYGRAN00076,11973414.0,17886215.25,594711884.0
200,,2019-09-26T15:19:34.694,,2019-09-24,TGA,,TGA24092019,1036,,,0.030416,,,21733812.28,714562916.0
208,,2019-10-07T08:57:12.713,,2019-10-04,TGA,,TGA04102019,1102,,,0.030557,,,34054166.55,1114434344.0
216,,2019-10-17T08:39:13.988,,2019-10-16,TGA,,TGA16102019,1116,,,0.030246,,,35936563.4,1188157497.0
224,,2019-10-28T11:54:01.438,,2019-10-28,TGA,,TGA28102019,1006,,,0.03055,,,36051860.43,1180087738.0
232,,2019-11-08T11:54:00.849,,2019-11-08,TGA,,TGA08112019,1030,,,0.030671,,,35965074.79,1172594639.0
240,,2019-11-20T11:54:01.529,,2019-11-20,TGA,,TGA20112019,1021,,,0.030975,,,51415708.16,1659923919.0
248,,2019-12-02T16:07:04.903,,2019-12-02,TGA,,TGA02122019,1015,,,0.031108,,,34068776.58,1095161943.0
256,,2019-12-12T11:54:01.916,,2019-12-12,TGA,,TGA12122019,1064,,,0.031455,,,49950927.09,1588000824.0
264,,2019-12-24T13:50:59.425,,2019-12-24,TGA,,TGA24122019,1096,,,0.031572,,,54955447.81,1740620395.0
272,,2020-11-20T11:03:59.123,,2020-01-06,TGA,,TGA06012020,1249,,,0.031652,,,55934803.22,1767166345.0
280,,2020-01-16T12:54:00.822,,2020-01-16,TGA,,TGA16012020,1078,,,0.031763,,,49036277.8,1543816014.0
288,,2020-01-28T12:54:06.795,,2020-01-28,TGA,,TGA28012020,1053,,,0.031954,,,48826305.66,1528037260.0
296,,2020-11-20T11:02:41.325,,2020-02-07,TGA,,TGA07022020,1141,,,0.031985,,,48081014.69,1503233215.0
304,,2020-11-20T11:06:14.111,,2020-02-19,TGA,,TGA19022020,1129,,,0.032022,,,45605188.9,1424161859.0
312,,2020-11-20T11:08:07.261,,2020-03-02,TGA,,TGA02032020,1121,,,0.032282,,,43337493.2,1342455556.0
320,,2020-11-20T11:09:08.97,,2020-03-12,TGA,,TGA12032020,1197,,,0.032315,,,42860262.2,1326345192.0
328,,2020-11-20T11:09:49.822,,2020-03-24,TGA,,TGA24032020,1128,,,0.031981,,,40920854.43,1279533159.0
336,,2020-11-20T11:11:26.54,,2020-04-03,TGA,,TGA03042020,1123,,,0.032109,,,39963906.31,1244636651.0
344,,2020-11-20T11:12:11.168,,2020-04-15,TGA,,TGA15042020,1092,,,0.032531,,,40010824.58,1229943966.0
352,,2020-11-20T11:13:03.519,,2020-04-28,TGA,,TGA28042020,1076,,,0.0327,,,39528214.92,1208825788.0
360,,2020-11-20T11:14:12.914,,2020-05-11,TGA,,TGA11052020,1082,,,0.032641,,,39390190.0,1206786937.0
368,,2020-11-20T11:14:55.072,,2020-05-22,TGA,,TGA22052020,1113,,,0.032993,,,40357748.17,1223229427.0
376,,2020-11-20T11:15:42.308,,2020-06-05,TGA,,TGA05062020,1116,,,0.032866,,,41236792.05,1254702879.0
384,,2020-11-20T11:16:26.047,,2020-06-17,TGA,,TGA17062020,1099,,,0.032946,,,40410479.62,1226563992.0
392,,2020-11-20T11:17:01.628,,2020-06-29,TGA,,TGA29062020,1084,,,0.032921,,,39661247.58,1204756752.0
400,,2020-11-20T11:18:12.187,,2020-07-09,TGA,,TGA09072020,1089,,,0.033232,,,39679599.85,1194017578.0
408,,2020-11-20T11:19:24.862,,2020-07-22,TGA,,TGA22072020,1080,,,0.03332,,,38119986.9,1144072925.0
416,,2020-11-20T11:21:17.72,,2020-08-05,TGA,,TGA05082020,1061,,,0.033295,,,37291865.11,1120054468.0
424,,2020-11-20T11:22:13.54,,2020-08-17,TGA,,TGA17082020,1015,,,0.033105,,,34981900.95,1056708785.0
432,,2020-11-20T11:23:02.491,,2020-08-27,TGA,,TGA27082020,1003,,,0.033435,,,32803804.0,981124466.0
440,,2020-11-20T11:24:04.483,,2020-09-08,TGA,,TGA08092020,993,,,0.033696,,,32397537.65,961456514.0
448,,2020-11-20T11:24:53.833,,2020-09-18,TGA,,TGA18092020,974,,,0.033793,,,32276866.44,955143197.0
456,,2020-11-20T11:25:50.667,,2020-09-30,TGA,,TGA30092020,975,,,0.034011,,,32137991.76,944930012.0
464,,2020-11-20T11:30:28.833,,2020-10-12,TGA,,TGA12102020,957,,,0.033974,,,31269853.88,920413218.0
472,,2020-11-20T11:31:26.991,,2020-10-22,TGA,,TGA22102020,952,,,0.034488,,,30547145.32,885732217.0
480,,2020-12-01T10:03:18.749,,2020-11-04,TGA,,TGA04112020,943,,,0.034368,,,29933236.21,870952102.0
488,,2020-12-01T10:04:35.069,,2020-11-16,TGA,,TGA16112020,926,,,0.034372,,,28373790.44,825485105.0
496,,2020-12-01T10:05:35.61,,2020-11-26,TGA,,TGA26112020,923,,,0.034422,,,27550752.58,800370654.0
504,,2020-12-08T23:00:00.834,,2020-12-08,TGA,,TGA08122020,811,,,0.034596,,,26865323.21,776533392.0
512,,2020-12-18T23:00:01.486,,2020-12-18,TGA,,TGA18122020,803,,,0.034929,,,24794155.98,709845025.0
520,,2020-12-30T23:00:00.83,,2020-12-30,TGA,,TGA30122020,798,,,0.034618,,,13247008.21,382661094.0
528,,2021-01-12T23:00:01.58,,2021-01-12,TGA,,TGA12012021,790,,,0.03526,,,13002545.85,368760033.0
536,,2021-01-22T23:00:05.154,,2021-01-22,TGA,,TGA22012021,829,,,0.035538,,,13854260.57,389838245.0
544,,2021-02-03T23:00:00.916,,2021-02-03,TGA,,TGA03022021,858,,,0.03557,,,14100750.77,396419058.0
552,,2021-02-15T23:00:01.633,,2021-02-15,TGA,,TGA15022021,923,,,0.035849,,,13661875.58,381099534.0
560,,2021-02-25T12:54:00.777,,2021-02-25,TGA,,TGA25022021,965,,,0.035707,,,15388427.56,430959856.0
568,,2021-03-10T09:41:46.912,,2021-03-09,TGA,,TGA09032021,1075,,,0.036033,,,15171013.32,421030089.0
576,,2021-03-22T08:33:09.186,,2021-03-19,TGA,,TGA19032021,1064,,,0.036196,,,14373211.82,397097911.0
584,,2021-04-01T08:24:16.033,,2021-03-31,TGA,,TGA31032021,1088,,,0.0365,,,14912486.12,408556725.0
592,,2021-04-16T23:00:10.796,,2021-04-12,TGA,,TGA12042021,1104,,,0.03694,,,15438957.28,417946770.0
600,,2021-04-26T23:00:08.489,,2021-04-22,TGA,,TGA22042021,1092,,,0.036772,,,15220469.47,413915705.0
608,,2021-05-07T23:00:09.263,,2021-05-05,TGA,,TGA05052021,1221,,,0.03788,,,16082942.94,424581672.0
616,,2021-05-24T23:00:12.875,,2021-05-20,TGA,,TGA20052021,1354,,,0.038496,,,20618203.22,535596688.0
624,,2021-06-04T23:00:09.628,,2021-06-01,TGA,,TGA01062021,1405,,,0.038257,,,20717821.63,541538938.0
632,,2021-06-15T23:00:12.05,,2021-06-11,TGA,,TGA11062021,1411,,,0.038617,,,22396661.92,579975821.0
640,,2021-06-25T23:00:10.431,,2021-06-23,TGA,,TGA23062021,1396,,,0.038174,,,21482479.42,562757445.0
648,,2021-07-09T23:00:11.749,,2021-07-05,TGA,,TGA05072021,1371,,,0.038182,,,20724514.18,542785974.0
656,,2021-07-20T23:00:09.883,,2021-07-16,TGA,,TGA16072021,1371,,,0.038321,,,20853392.56,544175481.0
664,,2021-08-06T23:00:08.949,,2021-08-03,TGA,,TGA03082021,1343,,,0.039193,,,20375835.66,519882614.0
672,,2021-08-17T23:00:09.192,,2021-08-13,TGA,,TGA13082021,1417,,,0.040194,,,22766281.8,566410431.0
677,,2021-08-23T23:00:07.465,,2021-08-20,TGA,,TGA20082021,1434,,,0.040254,,,24218947.46,601660397.0